wavenumber(cm-1)	real_intensity	imaginary_intensity
1499.000017	1.21483	6.10100e-03
1498.000095	1.21389	6.14300e-03
1496.999937	1.21295	6.18500e-03
1495.999995	1.21200	6.22700e-03
1495.000047	1.21104	6.27000e-03
1494.000096	1.21008	6.31300e-03
1492.999921	1.20911	6.35600e-03
1491.999971	1.20814	6.40000e-03
1491.000026	1.20717	6.44400e-03
1490.000088	1.20619	6.48800e-03
1488.999939	1.20520	6.53300e-03
1488.000024	1.20421	6.57900e-03
1486.999903	1.20321	6.62400e-03
1486.000022	1.20220	6.67000e-03
1484.999941	1.20120	6.71700e-03
1484.000104	1.20018	6.76400e-03
1483.000074	1.19916	6.81100e-03
1482.000072	1.19814	6.85900e-03
1481.000102	1.19710	6.90700e-03
1479.999947	1.19607	6.95500e-03
1479.000048	1.19502	7.00400e-03
1477.999970	1.19398	7.05400e-03
1476.999935	1.19292	7.10300e-03
1475.999946	1.19186	7.15400e-03
1475.000004	1.19079	7.20400e-03
1473.999895	1.18972	7.25600e-03
1473.000056	1.18864	7.30700e-03
1472.000057	1.18755	7.35900e-03
1470.999899	1.18646	7.41200e-03
1470.000019	1.18537	7.46500e-03
1468.999987	1.18426	7.51800e-03
1468.000022	1.18315	7.57200e-03
1466.999910	1.18203	7.62700e-03
1466.000086	1.18091	7.68200e-03
1464.999907	1.17978	7.73700e-03
1464.000020	1.17864	7.79300e-03
1462.999999	1.17750	7.85000e-03
1462.000060	1.17635	7.90700e-03
1460.999993	1.17519	7.96500e-03
1460.000015	1.17403	8.02300e-03
1458.999914	1.17286	8.08100e-03
1457.999907	1.17168	8.14100e-03
1456.999996	1.17049	8.20100e-03
1455.999972	1.16930	8.26100e-03
1455.000049	1.16810	8.32200e-03
1454.000019	1.16690	8.38300e-03
1453.000096	1.16568	8.44500e-03
1452.000072	1.16446	8.50800e-03
1450.999949	1.16323	8.57200e-03
1449.999942	1.16199	8.63500e-03
1449.000052	1.16075	8.70000e-03
1448.000073	1.15950	8.76500e-03
1447.000007	1.15824	8.83100e-03
1446.000067	1.15697	8.89800e-03
1445.000047	1.15569	8.96500e-03
1443.999949	1.15441	9.03200e-03
1442.999985	1.15312	9.10100e-03
1441.999950	1.15182	9.17000e-03
1441.000054	1.15051	9.24000e-03
1440.000092	1.14919	9.31000e-03
1439.000068	1.14787	9.38200e-03
1437.999984	1.14654	9.45400e-03
1437.000050	1.14519	9.52600e-03
1436.000062	1.14384	9.60000e-03
1435.000024	1.14248	9.67400e-03
1433.999938	1.14111	9.74900e-03
1433.000013	1.13974	9.82500e-03
1432.000046	1.13835	9.90100e-03
1431.000040	1.13695	9.97900e-03
1429.999999	1.13555	1.00570e-02
1428.999924	1.13413	1.01360e-02
1428.000025	1.13271	1.02150e-02
1427.000098	1.13128	1.02960e-02
1425.999943	1.12984	1.03770e-02
1424.999971	1.12838	1.04600e-02
1423.999982	1.12692	1.05430e-02
1422.999977	1.12545	1.06270e-02
1421.999960	1.12397	1.07120e-02
1420.999935	1.12247	1.07980e-02
1419.999903	1.12097	1.08850e-02
1419.000070	1.11946	1.09730e-02
1418.000036	1.11793	1.10620e-02
1417.000004	1.11640	1.11510e-02
1415.999978	1.11485	1.12420e-02
1414.999962	1.11330	1.13340e-02
1413.999957	1.11173	1.14270e-02
1412.999967	1.11015	1.15200e-02
1411.999995	1.10857	1.16150e-02
1411.000043	1.10696	1.17110e-02
1409.999917	1.10535	1.18080e-02
1409.000016	1.10373	1.19060e-02
1407.999946	1.10210	1.20060e-02
1406.999909	1.10045	1.21060e-02
1405.999908	1.09879	1.22080e-02
1404.999945	1.09712	1.23100e-02
1404.000024	1.09543	1.24140e-02
1402.999951	1.09374	1.25190e-02
1401.999925	1.09203	1.26260e-02
1400.999950	1.09031	1.27330e-02
1400.000028	1.08858	1.28420e-02
1398.999967	1.08683	1.29530e-02
1397.999965	1.08507	1.30640e-02
1397.000026	1.08330	1.31770e-02
1395.999958	1.08151	1.32910e-02
1394.999957	1.07971	1.34070e-02
1394.000029	1.07790	1.35240e-02
1392.999980	1.07607	1.36420e-02
1392.000009	1.07422	1.37620e-02
1390.999924	1.07237	1.38840e-02
1389.999924	1.07050	1.40060e-02
1389.000009	1.06861	1.41310e-02
1387.999991	1.06671	1.42570e-02
1387.000064	1.06479	1.43850e-02
1386.000041	1.06286	1.45140e-02
1384.999925	1.06092	1.46450e-02
1383.999909	1.05896	1.47770e-02
1382.999998	1.05698	1.49110e-02
1382.000003	1.05498	1.50470e-02
1380.999927	1.05297	1.51850e-02
1379.999964	1.05095	1.53250e-02
1378.999927	1.04890	1.54660e-02
1378.000009	1.04685	1.56090e-02
1377.000024	1.04477	1.57550e-02
1375.999974	1.04267	1.59020e-02
1375.000052	1.04056	1.60510e-02
1374.000071	1.03843	1.62020e-02
1373.000037	1.03628	1.63550e-02
1371.999951	1.03412	1.65100e-02
1371.000005	1.03193	1.66680e-02
1370.000014	1.02973	1.68270e-02
1368.999981	1.02751	1.69890e-02
1367.999910	1.02527	1.71530e-02
1366.999991	1.02300	1.73200e-02
1366.000040	1.02072	1.74880e-02
1365.000061	1.01842	1.76600e-02
1364.000056	1.01610	1.78330e-02
1363.000028	1.01376	1.80090e-02
1361.999983	1.01139	1.81880e-02
1360.999921	1.00901	1.83690e-02
1360.000033	1.00660	1.85530e-02
1358.999950	1.00417	1.87400e-02
1358.000046	1.00172	1.89290e-02
1356.999955	0.99925	1.91210e-02
1356.000049	0.99675	1.93170e-02
1354.999963	0.99423	1.95150e-02
1354.000068	0.99169	1.97160e-02
1353.000000	0.98912	1.99200e-02
1351.999946	0.98653	2.01280e-02
1350.999909	0.98392	2.03380e-02
1350.000074	0.98128	2.05520e-02
1349.000081	0.97861	2.07690e-02
1347.999932	0.97591	2.09900e-02
1346.999995	0.97320	2.12150e-02
1345.999910	0.97045	2.14420e-02
1345.000043	0.96768	2.16740e-02
1344.000034	0.96488	2.19100e-02
1343.000069	0.96205	2.21490e-02
1341.999969	0.95919	2.23920e-02
1340.999919	0.95630	2.26390e-02
1339.999922	0.95339	2.28910e-02
1338.999981	0.95044	2.31470e-02
1337.999920	0.94746	2.34070e-02
1336.999922	0.94445	2.36720e-02
1335.999989	0.94141	2.39410e-02
1334.999947	0.93834	2.42150e-02
1333.999978	0.93524	2.44940e-02
1333.000083	0.93210	2.47780e-02
1331.999913	0.92893	2.50670e-02
1331.000002	0.92572	2.53610e-02
1329.999999	0.92248	2.56600e-02
1329.000084	0.91920	2.59650e-02
1328.000085	0.91589	2.62760e-02
1327.000005	0.91254	2.65920e-02
1326.000023	0.90915	2.69150e-02
1324.999967	0.90572	2.72440e-02
1324.000016	0.90226	2.75790e-02
1322.999998	0.89875	2.79200e-02
1321.999916	0.89521	2.82690e-02
1320.999949	0.89162	2.86240e-02
1319.999926	0.88799	2.89860e-02
1319.000024	0.88431	2.93550e-02
1318.000072	0.88059	2.97330e-02
1317.000074	0.87683	3.01170e-02
1316.000034	0.87302	3.05100e-02
1314.999955	0.86916	3.09120e-02
1314.000013	0.86526	3.13210e-02
1313.000040	0.86131	3.17400e-02
1312.000038	0.85730	3.21670e-02
1311.000011	0.85325	3.26040e-02
1309.999963	0.84915	3.30510e-02
1309.000069	0.84499	3.35080e-02
1307.999990	0.84077	3.39750e-02
1307.000070	0.83650	3.44530e-02
1305.999973	0.83218	3.49420e-02
1305.000042	0.82779	3.54420e-02
1303.999942	0.82335	3.59540e-02
1303.000014	0.81884	3.64790e-02
1301.999924	0.81427	3.70170e-02
1301.000014	0.80964	3.75680e-02
1299.999948	0.80495	3.81320e-02
1299.000069	0.80018	3.87110e-02
1298.000042	0.79535	3.93050e-02
1297.000039	0.79044	3.99150e-02
1296.000064	0.78547	4.05400e-02
1294.999953	0.78042	4.11830e-02
1294.000045	0.77529	4.18430e-02
1293.000008	0.77008	4.25210e-02
1292.000013	0.76480	4.32180e-02
1291.000064	0.75943	4.39350e-02
1289.999997	0.75398	4.46730e-02
1288.999984	0.74843	4.54330e-02
1288.000026	0.74280	4.62150e-02
1286.999962	0.73708	4.70220e-02
1285.999961	0.73126	4.78530e-02
1285.000028	0.72535	4.87110e-02
1283.999999	0.71933	4.95960e-02
1283.000044	0.71320	5.05100e-02
1282.000002	0.70698	5.14550e-02
1281.000041	0.70063	5.24320e-02
1280.000000	0.69418	5.34420e-02
1279.000047	0.68760	5.44890e-02
1278.000022	0.68091	5.55730e-02
1276.999929	0.67409	5.66980e-02
1275.999934	0.66713	5.78650e-02
1275.000041	0.66004	5.90770e-02
1273.999929	0.65281	6.03370e-02
1272.999926	0.64543	6.16490e-02
1272.000036	0.63791	6.30140e-02
1270.999938	0.63022	6.44380e-02
1269.999959	0.62237	6.59240e-02
1268.999943	0.61435	6.74770e-02
1268.000053	0.60616	6.91020e-02
1266.999972	0.59778	7.08030e-02
1266.000025	0.58921	7.25880e-02
1265.000054	0.58044	7.44630e-02
1264.000065	0.57145	7.64360e-02
1263.000060	0.56226	7.85140e-02
1262.000043	0.55283	8.07080e-02
1261.000018	0.54317	8.30280e-02
1259.999990	0.53325	8.54850e-02
1258.999961	0.52307	8.80950e-02
1257.999936	0.51263	9.08710e-02
1257.000076	0.50189	9.38330e-02
1256.000069	0.49086	9.69990e-02
1255.000077	0.47951	1.00395e-01
1253.999946	0.46783	1.04045e-01
1252.999995	0.45582	1.07983e-01
1252.000070	0.44344	1.12243e-01
1251.000018	0.43071	1.16868e-01
1250.000000	0.41759	1.21907e-01
1249.000019	0.40409	1.27417e-01
1247.999924	0.39021	1.33463e-01
1247.000030	0.37596	1.40121e-01
1246.000028	0.36135	1.47475e-01
1244.999925	0.34643	1.55621e-01
1244.000032	0.33126	1.64657e-01
1243.000045	0.31592	1.74685e-01
1241.999968	0.30054	1.85794e-01
1240.999958	0.28530	1.98054e-01
1240.000020	0.27037	2.11489e-01
1239.000003	0.25598	2.26071e-01
1238.000065	0.24232	2.41707e-01
1237.000057	0.22956	2.58246e-01
1235.999983	0.21782	2.75495e-01
1234.999999	0.20715	2.93250e-01
1233.999957	0.19755	3.11314e-01
1233.000012	0.18896	3.29521e-01
1232.000018	0.18130	3.47736e-01
1230.999977	0.17449	3.65861e-01
1230.000046	0.16844	3.83827e-01
1228.999925	0.16304	4.01590e-01
1228.000072	0.15822	4.19124e-01
1227.000038	0.15391	4.36415e-01
1225.999978	0.15005	4.53462e-01
1225.000046	0.14658	4.70266e-01
1223.999946	0.14345	4.86835e-01
1222.999982	0.14063	5.03178e-01
1222.000008	0.13807	5.19307e-01
1221.000028	0.13576	5.35234e-01
1220.000046	0.13366	5.50972e-01
1219.000066	0.13175	5.66532e-01
1217.999944	0.13002	5.81927e-01
1216.999981	0.12844	5.97169e-01
1216.000031	0.12701	6.12269e-01
1214.999952	0.12570	6.27238e-01
1214.000043	0.12452	6.42087e-01
1213.000012	0.12344	6.56825e-01
1212.000012	0.12247	6.71462e-01
1211.000046	0.12158	6.86006e-01
1209.999972	0.12079	7.00467e-01
1208.999941	0.12008	7.14852e-01
1207.999956	0.11944	7.29169e-01
1207.000021	0.11887	7.43425e-01
1205.999995	0.11837	7.57628e-01
1205.000027	0.11794	7.71784e-01
1203.999977	0.11756	7.85900e-01
1202.999993	0.11724	7.99982e-01
1201.999936	0.11697	8.14035e-01
1200.999953	0.11676	8.28066e-01
1200.000048	0.11660	8.42080e-01
1198.999938	0.11648	8.56082e-01
1198.000059	0.11641	8.70078e-01
1196.999983	0.11638	8.84072e-01
1196.000002	0.11640	8.98071e-01
1194.999977	0.11645	9.12077e-01
1194.000054	0.11655	9.26097e-01
1192.999953	0.11669	9.40135e-01
1191.999964	0.11687	9.54194e-01
1190.999947	0.11708	9.68281e-01
1190.000049	0.11733	9.82399e-01
1188.999990	0.11762	9.96552e-01
1188.000059	0.11795	1.01075e+00
1186.999976	0.11831	1.02498e+00
1186.000029	0.11871	1.03927e+00
1184.999939	0.11914	1.05361e+00
1183.999992	0.11961	1.06800e+00
1183.000053	0.12011	1.08246e+00
1181.999984	0.12065	1.09698e+00
1180.999931	0.12123	1.11157e+00
1180.000038	0.12184	1.12624e+00
1179.000029	0.12248	1.14098e+00
1178.000048	0.12316	1.15580e+00
1176.999961	0.12388	1.17072e+00
1176.000050	0.12463	1.18572e+00
1175.000041	0.12543	1.20082e+00
1173.999940	0.12626	1.21602e+00
1173.000026	0.12712	1.23133e+00
1172.000029	0.12803	1.24674e+00
1170.999952	0.12898	1.26227e+00
1169.999938	0.12996	1.27792e+00
1168.999991	0.13099	1.29369e+00
1167.999978	0.13206	1.30959e+00
1167.000040	0.13317	1.32563e+00
1166.000045	0.13432	1.34180e+00
1164.999998	0.13553	1.35813e+00
1164.000040	0.13677	1.37460e+00
1163.000038	0.13807	1.39123e+00
1161.999997	0.13941	1.40802e+00
1161.000058	0.14081	1.42498e+00
1159.999954	0.14225	1.44211e+00
1158.999959	0.14375	1.45943e+00
1157.999944	0.14530	1.47693e+00
1157.000047	0.14692	1.49463e+00
1156.000004	0.14859	1.51253e+00
1154.999954	0.15032	1.53064e+00
1154.000035	0.15212	1.54897e+00
1152.999985	0.15398	1.56752e+00
1151.999941	0.15590	1.58631e+00
1151.000041	0.15790	1.60533e+00
1150.000023	0.15998	1.62461e+00
1149.000025	0.16213	1.64414e+00
1148.000052	0.16436	1.66395e+00
1146.999976	0.16667	1.68403e+00
1146.000064	0.16907	1.70440e+00
1145.000060	0.17156	1.72507e+00
1143.999966	0.17415	1.74605e+00
1143.000051	0.17683	1.76736e+00
1142.000056	0.17962	1.78900e+00
1140.999986	0.18252	1.81099e+00
1139.999977	0.18553	1.83333e+00
1139.000033	0.18866	1.85606e+00
1138.000029	0.19192	1.87917e+00
1136.999969	0.19530	1.90269e+00
1135.999987	0.19883	1.92663e+00
1134.999960	0.20250	1.95101e+00
1134.000020	0.20633	1.97585e+00
1133.000042	0.21032	2.00115e+00
1132.000034	0.21448	2.02696e+00
1130.999997	0.21882	2.05328e+00
1129.999939	0.22336	2.08014e+00
1128.999991	0.22810	2.10756e+00
1128.000029	0.23306	2.13556e+00
1127.000059	0.23824	2.16418e+00
1125.999958	0.24367	2.19343e+00
1124.999986	0.24936	2.22336e+00
1124.000019	0.25533	2.25398e+00
1122.999937	0.26159	2.28533e+00
1121.999996	0.26816	2.31745e+00
1120.999950	0.27508	2.35038e+00
1120.000054	0.28235	2.38414e+00
1119.000062	0.29001	2.41879e+00
1117.999979	0.29809	2.45438e+00
1117.000060	0.30662	2.49093e+00
1116.000059	0.31563	2.52852e+00
1114.999983	0.32516	2.56719e+00
1113.999961	0.33526	2.60701e+00
1112.999996	0.34596	2.64803e+00
1111.999970	0.35732	2.69032e+00
1111.000011	0.36941	2.73395e+00
1110.000001	0.38228	2.77901e+00
1108.999945	0.39600	2.82558e+00
1107.999970	0.41066	2.87374e+00
1106.999959	0.42635	2.92360e+00
1106.000039	0.44316	2.97525e+00
1104.999970	0.46121	3.02882e+00
1104.000002	0.48064	3.08442e+00
1103.000017	0.50158	3.14220e+00
1102.000020	0.52421	3.20228e+00
1101.000016	0.54872	3.26482e+00
1100.000011	0.57533	3.32999e+00
1099.000009	0.60428	3.39797e+00
1098.000015	0.63588	3.46894e+00
1097.000034	0.67046	3.54312e+00
1095.999951	0.70842	3.62071e+00
1095.000011	0.75022	3.70195e+00
1093.999979	0.79640	3.78707e+00
1092.999980	0.84760	3.87630e+00
1092.000019	0.90458	3.96990e+00
1090.999981	0.96823	4.06808e+00
1089.999991	1.03963	4.17103e+00
1089.000054	1.12003	4.27889e+00
1088.000056	1.21099	4.39170e+00
1087.000002	1.31430	4.50934e+00
1086.000015	1.43216	4.63145e+00
1084.999984	1.56714	4.75733e+00
1084.000029	1.72227	4.88570e+00
1083.000040	1.90104	5.01450e+00
1082.000021	2.10731	5.14055e+00
1080.999977	2.34514	5.25903e+00
1080.000030	2.61829	5.36305e+00
1078.999953	2.92939	5.44309e+00
1077.999982	3.27851	5.48678e+00
1077.000008	3.66123	5.47947e+00
1076.000034	4.06661	5.40599e+00
1074.999952	4.47595	5.25434e+00
1073.999996	4.86416	5.02029e+00
1073.000057	5.20434	4.71116e+00
1072.000024	5.47463	4.34589e+00
1071.000018	5.66384	3.95052e+00
1070.000045	5.77280	3.55132e+00
1068.999994	5.81157	3.16927e+00
1067.999986	5.79472	2.81766e+00
1067.000026	5.73731	2.50274e+00
1066.000004	5.65245	2.22560e+00
1065.000041	5.55049	1.98425e+00
1064.000027	5.43907	1.77519e+00
1062.999969	5.32352	1.59441e+00
1061.999984	5.20746	1.43799e+00
1060.999965	5.09323	1.30234e+00
1060.000030	4.98230	1.18433e+00
1058.999959	4.87551	1.08127e+00
1057.999982	4.77331	9.90892e-01
1056.999993	4.67587	9.11306e-01
1055.999997	4.58319	8.40920e-01
1054.999998	4.49516	7.78409e-01
1054.000004	4.41160	7.22668e-01
1053.000018	4.33231	6.72767e-01
1052.000047	4.25704	6.27927e-01
1050.999984	4.18557	5.87490e-01
1049.999947	4.11766	5.50900e-01
1049.000051	4.05308	5.17684e-01
1047.999971	3.99162	4.87438e-01
1047.000041	3.93308	4.59817e-01
1046.000049	3.87727	4.34523e-01
1044.999999	3.82401	4.11299e-01
1044.000007	3.77313	3.89924e-01
1042.999968	3.72449	3.70203e-01
1041.999998	3.67793	3.51969e-01
1040.999993	3.63334	3.35073e-01
1039.999958	3.59059	3.19385e-01
1039.000008	3.54957	3.04792e-01
1038.000040	3.51017	2.91191e-01
1036.999951	3.47230	2.78494e-01
1035.999963	3.43587	2.66621e-01
1034.999973	3.40079	2.55500e-01
1033.999988	3.36700	2.45069e-01
1033.000012	3.33442	2.35269e-01
1032.000051	3.30298	2.26051e-01
1031.000005	3.27262	2.17368e-01
1029.999986	3.24329	2.09179e-01
1028.999998	3.21494	2.01446e-01
1028.000049	3.18750	1.94136e-01
1027.000036	3.16095	1.87217e-01
1025.999968	3.13523	1.80661e-01
1024.999954	3.11030	1.74443e-01
1024.000000	3.08612	1.68540e-01
1023.000007	3.06267	1.62930e-01
1021.999980	3.03990	1.57594e-01
1021.000031	3.01779	1.52514e-01
1019.999955	2.99631	1.47673e-01
1018.999968	2.97542	1.43057e-01
1017.999970	2.95510	1.38650e-01
1016.999968	2.93533	1.34442e-01
1015.999967	2.91609	1.30419e-01
1014.999974	2.89735	1.26571e-01
1013.999994	2.87909	1.22887e-01
1013.000032	2.86129	1.19358e-01
1011.999992	2.84393	1.15976e-01
1010.999983	2.82700	1.12732e-01
1010.000010	2.81048	1.09618e-01
1008.999977	2.79436	1.06628e-01
1007.999992	2.77861	1.03755e-01
1006.999959	2.76323	1.00992e-01
1005.999985	2.74819	9.83350e-02
1004.999975	2.73350	9.57780e-02
1004.000037	2.71913	9.33150e-02
1002.999973	2.70507	9.09420e-02
1001.999992	2.69132	8.86550e-02
1000.999999	2.67786	8.64500e-02
1000.000000	2.66469	8.43220e-02
999.000001	2.65178	8.22670e-02
998.000008	2.63914	8.02840e-02
997.000027	2.62675	7.83670e-02
995.999965	2.61461	7.65150e-02
995.000025	2.60271	7.47240e-02
994.000017	2.59104	7.29920e-02
993.000045	2.57959	7.13150e-02
992.000016	2.56836	6.96920e-02
991.000035	2.55734	6.81210e-02
990.000010	2.54651	6.65990e-02
989.000045	2.53589	6.51230e-02
988.000048	2.52546	6.36930e-02
987.000025	2.51521	6.23060e-02
985.999983	2.50514	6.09610e-02
985.000026	2.49524	5.96560e-02
983.999964	2.48552	5.83880e-02
982.999998	2.47595	5.71580e-02
982.000038	2.46655	5.59630e-02
980.999992	2.45730	5.48020e-02
979.999965	2.44820	5.36740e-02
978.999961	2.43925	5.25770e-02
977.999988	2.43044	5.15110e-02
976.999956	2.42176	5.04740e-02
975.999966	2.41323	4.94650e-02
975.000024	2.40482	4.84830e-02
974.000043	2.39654	4.75280e-02
973.000028	2.38838	4.65970e-02
971.999985	2.38034	4.56910e-02
971.000016	2.37242	4.48090e-02
970.000033	2.36461	4.39490e-02
969.000041	2.35691	4.31110e-02
967.999954	2.34933	4.22950e-02
966.999966	2.34184	4.14990e-02
965.999988	2.33446	4.07220e-02
965.000028	2.32718	3.99650e-02
963.999998	2.32000	3.92270e-02
962.999999	2.31291	3.85060e-02
962.000037	2.30592	3.78030e-02
961.000024	2.29901	3.71170e-02
959.999969	2.29219	3.64470e-02
958.999970	2.28546	3.57930e-02
958.000033	2.27881	3.51540e-02
956.999981	2.27224	3.45300e-02
956.000004	2.26575	3.39200e-02
955.000017	2.25935	3.33250e-02
954.000027	2.25301	3.27430e-02
953.000039	2.24675	3.21740e-02
951.999971	2.24056	3.16180e-02
951.000010	2.23444	3.10750e-02
949.999981	2.22839	3.05430e-02
948.999982	2.22241	3.00240e-02
948.000019	2.21649	2.95160e-02
947.000008	2.21063	2.90180e-02
945.999957	2.20484	2.85320e-02
944.999963	2.19911	2.80560e-02
944.000030	2.19343	2.75910e-02
942.999988	2.18782	2.71350e-02
942.000022	2.18226	2.66890e-02
940.999961	2.17675	2.62530e-02
939.999989	2.17130	2.58260e-02
939.000023	2.16590	2.54070e-02
937.999983	2.16056	2.49980e-02
936.999964	2.15526	2.45970e-02
935.999972	2.15001	2.42040e-02
935.000014	2.14481	2.38200e-02
934.000010	2.13965	2.34430e-02
932.999966	2.13454	2.30740e-02
931.999977	2.12947	2.27130e-02
930.999962	2.12445	2.23590e-02
930.000015	2.11946	2.20120e-02
928.999970	2.11452	2.16730e-02
928.000006	2.10962	2.13400e-02
926.999958	2.10475	2.10140e-02
926.000006	2.09993	2.06940e-02
924.999984	2.09514	2.03810e-02
923.999985	2.09038	2.00750e-02
923.000016	2.08566	1.97740e-02
921.999999	2.08097	1.94800e-02
921.000026	2.07632	1.91920e-02
920.000018	2.07170	1.89090e-02
918.999985	2.06711	1.86320e-02
918.000016	2.06254	1.83610e-02
917.000034	2.05801	1.80960e-02
915.999964	2.05350	1.78350e-02
914.999979	2.04903	1.75800e-02
914.000003	2.04457	1.73310e-02
912.999960	2.04015	1.70860e-02
912.000023	2.03574	1.68470e-02
911.000034	2.03137	1.66120e-02
909.999999	2.02701	1.63830e-02
909.000009	2.02268	1.61580e-02
907.999988	2.01837	1.59380e-02
907.000027	2.01408	1.57230e-02
905.999967	2.00980	1.55130e-02
904.999980	2.00555	1.53070e-02
903.999992	2.00132	1.51050e-02
903.000010	1.99710	1.49080e-02
901.999959	1.99290	1.47160e-02
901.000011	1.98871	1.45280e-02
900.000009	1.98454	1.43440e-02
898.999961	1.98038	1.41650e-02
898.000037	1.97624	1.39890e-02
897.000001	1.97210	1.38190e-02
896.000023	1.96798	1.36520e-02
895.000029	1.96387	1.34900e-02
894.000026	1.95977	1.33310e-02
893.000023	1.95568	1.31770e-02
892.000026	1.95160	1.30280e-02
890.999965	1.94752	1.28820e-02
890.000004	1.94345	1.27400e-02
888.999994	1.93939	1.26030e-02
888.000021	1.93533	1.24700e-02
887.000013	1.93127	1.23410e-02
885.999978	1.92722	1.22160e-02
885.000002	1.92316	1.20950e-02
884.000015	1.91911	1.19790e-02
883.000024	1.91506	1.18670e-02
882.000037	1.91101	1.17590e-02
880.999984	1.90696	1.16550e-02
880.000028	1.90290	1.15560e-02
879.000021	1.89884	1.14610e-02
877.999972	1.89477	1.13710e-02
876.999966	1.89070	1.12850e-02
876.000009	1.88662	1.12040e-02
875.000033	1.88253	1.11270e-02
873.999969	1.87844	1.10560e-02
872.999979	1.87433	1.09890e-02
871.999993	1.87021	1.09270e-02
871.000020	1.86607	1.08700e-02
869.999990	1.86193	1.08180e-02
868.999990	1.85776	1.07710e-02
868.000025	1.85358	1.07300e-02
867.000028	1.84938	1.06940e-02
866.000008	1.84516	1.06650e-02
864.999973	1.84092	1.06400e-02
864.000006	1.83666	1.06230e-02
862.999964	1.83237	1.06110e-02
862.000006	1.82805	1.06050e-02
860.999989	1.82371	1.06070e-02
859.999998	1.81934	1.06150e-02
858.999966	1.81493	1.06310e-02
857.999975	1.81049	1.06540e-02
857.000032	1.80601	1.06840e-02
855.999999	1.80150	1.07230e-02
855.000032	1.79694	1.07700e-02
853.999991	1.79235	1.08260e-02
853.000031	1.78770	1.08920e-02
852.000015	1.78301	1.09670e-02
851.000023	1.77827	1.10520e-02
849.999991	1.77347	1.11470e-02
849.000001	1.76862	1.12540e-02
847.999988	1.76371	1.13730e-02
847.000032	1.75873	1.15040e-02
845.999998	1.75369	1.16480e-02
844.999966	1.74857	1.18060e-02
844.000017	1.74339	1.19790e-02
843.000014	1.73812	1.21670e-02
841.999969	1.73277	1.23710e-02
841.000030	1.72733	1.25940e-02
839.999993	1.72180	1.28340e-02
839.000009	1.71618	1.30950e-02
838.000016	1.71044	1.33770e-02
837.000021	1.70460	1.36820e-02
836.000034	1.69864	1.40110e-02
834.999993	1.69256	1.43650e-02
833.999977	1.68634	1.47480e-02
832.999995	1.67999	1.51610e-02
831.999984	1.67349	1.56060e-02
831.000024	1.66684	1.60860e-02
829.999984	1.66002	1.66040e-02
829.000012	1.65302	1.71630e-02
827.999978	1.64583	1.77660e-02
827.000029	1.63845	1.84170e-02
825.999968	1.63085	1.91210e-02
825.000008	1.62302	1.98810e-02
824.000022	1.61495	2.07050e-02
823.000019	1.60661	2.15960e-02
822.000008	1.59800	2.25630e-02
820.999998	1.58908	2.36130e-02
819.999997	1.57984	2.47530e-02
819.000014	1.57025	2.59950e-02
817.999992	1.56029	2.73480e-02
817.000005	1.54992	2.88260e-02
815.999997	1.53911	3.04430e-02
814.999977	1.52783	3.22140e-02
814.000019	1.51603	3.41600e-02
813.000000	1.50367	3.63020e-02
811.999996	1.49069	3.86660e-02
811.000015	1.47705	4.12820e-02
810.000001	1.46267	4.41850e-02
809.000028	1.44748	4.74160e-02
807.999975	1.43139	5.10260e-02
806.999982	1.41433	5.50740e-02
805.999993	1.39617	5.96310e-02
805.000016	1.37680	6.47840e-02
803.999996	1.35607	7.06400e-02
803.000008	1.33382	7.73310e-02
801.999996	1.30987	8.50220e-02
800.999968	1.28399	9.39200e-02
800.000000	1.25593	1.04292e-01
798.999972	1.22540	1.16481e-01
798.000020	1.19207	1.30941e-01
797.000028	1.15556	1.48273e-01
796.000004	1.11545	1.69293e-01
795.000022	1.07134	1.95120e-01
794.000028	1.02289	2.27301e-01
793.000030	0.97003	2.67974e-01
791.999977	0.91334	3.19999e-01
791.000002	0.85473	3.86854e-01
789.999991	0.79826	4.71839e-01
789.000014	0.75016	5.76262e-01
788.000020	0.71684	6.97935e-01
787.000019	0.70218	8.32294e-01
786.000019	0.70725	9.75230e-01
784.999969	0.73217	1.12450e+00
784.000003	0.77783	1.27936e+00
783.000005	0.84677	1.43958e+00
781.999987	0.94369	1.60442e+00
781.000019	1.07578	1.77120e+00
779.999989	1.25273	1.93311e+00
779.000029	1.48522	2.07566e+00
778.000026	1.77947	2.17240e+00
776.999992	2.12469	2.18502e+00
775.999996	2.47830	2.07896e+00
774.999988	2.77262	1.85624e+00
773.999978	2.95724	1.56838e+00
772.999977	3.03139	1.28070e+00
771.999993	3.02771	1.03279e+00
770.999977	2.98122	8.34726e-01
769.999999	2.91592	6.81343e-01
769.000010	2.84525	5.63361e-01
768.000020	2.77584	4.72115e-01
766.999979	2.71057	4.00769e-01
766.000017	2.65049	3.44254e-01
765.000025	2.59572	2.98886e-01
764.000014	2.54596	2.61994e-01
762.999994	2.50078	2.31632e-01
761.999976	2.45971	2.06363e-01
761.000027	2.42227	1.85119e-01
759.999985	2.38805	1.67090e-01
758.999975	2.35667	1.51661e-01
758.000008	2.32780	1.38353e-01
756.999979	2.30115	1.26793e-01
756.000013	2.27647	1.16686e-01
755.000006	2.25355	1.07797e-01
754.000027	2.23219	9.99350e-02
753.000027	2.21223	9.29470e-02
752.000019	2.19354	8.67060e-02
751.000013	2.17598	8.11080e-02
750.000019	2.15944	7.60670e-02
748.999991	2.14383	7.15090e-02
747.999998	2.12907	6.73750e-02
746.999992	2.11507	6.36110e-02
745.999985	2.10177	6.01750e-02
744.999988	2.08912	5.70290e-02
744.000012	2.07705	5.41410e-02
743.000011	2.06553	5.14820e-02
741.999997	2.05450	4.90280e-02
740.999981	2.04393	4.67590e-02
739.999973	2.03379	4.46560e-02
738.999985	2.02404	4.27030e-02
737.999973	2.01465	4.08850e-02
737.000002	2.00561	3.91910e-02
735.999974	1.99688	3.76080e-02
735.000010	1.98844	3.61280e-02
734.000011	1.98028	3.47420e-02
732.999989	1.97237	3.34410e-02
732.000010	1.96470	3.22180e-02
730.999977	1.95726	3.10680e-02
730.000007	1.95003	2.99840e-02
729.000007	1.94300	2.89620e-02
727.999986	1.93615	2.79970e-02
727.000010	1.92947	2.70840e-02
725.999983	1.92296	2.62200e-02
725.000024	1.91660	2.54020e-02
723.999984	1.91039	2.46260e-02
722.999981	1.90432	2.38890e-02
721.999975	1.89837	2.31890e-02
720.999975	1.89255	2.25240e-02
719.999994	1.88684	2.18910e-02
718.999992	1.88125	2.12870e-02
717.999979	1.87575	2.07130e-02
717.000020	1.87035	2.01650e-02
716.000023	1.86505	1.96420e-02
714.999999	1.85983	1.91420e-02
714.000012	1.85470	1.86650e-02
713.000022	1.84964	1.82090e-02
711.999991	1.84466	1.77730e-02
710.999980	1.83975	1.73550e-02
710.000002	1.83491	1.69560e-02
709.000018	1.83013	1.65730e-02
707.999989	1.82540	1.62060e-02
706.999979	1.82074	1.58550e-02
705.999997	1.81613	1.55180e-02
705.000008	1.81157	1.51950e-02
704.000023	1.80706	1.48850e-02
703.000003	1.80259	1.45870e-02
702.000012	1.79816	1.43020e-02
701.000012	1.79378	1.40280e-02
700.000014	1.78943	1.37650e-02
698.999983	1.78512	1.35130e-02
697.999979	1.78085	1.32710e-02
697.000014	1.77660	1.30380e-02
696.000004	1.77239	1.28150e-02
695.000010	1.76820	1.26010e-02
693.999995	1.76404	1.23950e-02
693.000021	1.75990	1.21980e-02
692.000002	1.75579	1.20080e-02
691.000001	1.75170	1.18270e-02
689.999982	1.74762	1.16530e-02
689.000005	1.74357	1.14860e-02
687.999987	1.73953	1.13260e-02
686.999989	1.73550	1.11740e-02
686.000022	1.73149	1.10270e-02
685.000007	1.72749	1.08870e-02
684.000002	1.72350	1.07540e-02
683.000020	1.71952	1.06260e-02
681.999981	1.71555	1.05050e-02
680.999991	1.71159	1.03890e-02
680.000016	1.70763	1.02790e-02
678.999977	1.70368	1.01750e-02
677.999979	1.69973	1.00750e-02
676.999988	1.69578	9.98200e-03
676.000019	1.69183	9.89300e-03
674.999992	1.68788	9.81000e-03
674.000011	1.68393	9.73100e-03
673.000000	1.67998	9.65800e-03
672.000017	1.67602	9.59000e-03
670.999985	1.67206	9.52600e-03
670.000006	1.66810	9.46700e-03
669.000005	1.66412	9.41300e-03
667.999995	1.66014	9.36400e-03
666.999989	1.65615	9.31900e-03
666.000001	1.65215	9.27900e-03
664.999999	1.64814	9.24400e-03
663.999998	1.64412	9.21300e-03
663.000011	1.64008	9.18600e-03
662.000008	1.63603	9.16500e-03
661.000002	1.63196	9.14700e-03
660.000007	1.62788	9.13500e-03
658.999993	1.62378	9.12700e-03
658.000017	1.61966	9.12300e-03
657.000007	1.61552	9.12400e-03
656.000019	1.61135	9.13000e-03
654.999982	1.60717	9.14000e-03
653.999995	1.60296	9.15500e-03
652.999986	1.59873	9.17500e-03
652.000013	1.59448	9.19900e-03
651.000004	1.59019	9.22900e-03
650.000016	1.58588	9.26300e-03
649.000021	1.58154	9.30200e-03
647.999990	1.57717	9.34600e-03
646.999981	1.57277	9.39500e-03
646.000007	1.56833	9.44900e-03
644.999999	1.56386	9.50800e-03
644.000013	1.55936	9.57300e-03
642.999981	1.55481	9.64300e-03
641.999999	1.55023	9.71900e-03
641.000001	1.54561	9.80000e-03
640.000000	1.54095	9.88700e-03
639.000011	1.53625	9.98000e-03
638.000008	1.53150	1.00790e-02
637.000005	1.52670	1.01840e-02
636.000018	1.52186	1.02960e-02
635.000020	1.51697	1.04140e-02
633.999986	1.51202	1.05380e-02
633.000012	1.50703	1.06700e-02
631.999992	1.50198	1.08080e-02
630.999982	1.49687	1.09540e-02
629.999995	1.49171	1.11070e-02
629.000008	1.48649	1.12680e-02
627.999995	1.48120	1.14370e-02
627.000012	1.47585	1.16130e-02
625.999996	1.47043	1.17990e-02
625.000000	1.46495	1.19930e-02
624.000001	1.45939	1.21960e-02
623.000014	1.45376	1.24090e-02
622.000016	1.44806	1.26310e-02
620.999984	1.44227	1.28630e-02
620.000010	1.43641	1.31060e-02
618.999994	1.43046	1.33590e-02
617.999991	1.42443	1.36240e-02
617.000016	1.41830	1.39010e-02
616.000009	1.41208	1.41890e-02
614.999985	1.40577	1.44910e-02
613.999998	1.39935	1.48060e-02
612.999989	1.39284	1.51340e-02
612.000011	1.38621	1.54770e-02
611.000004	1.37948	1.58350e-02
609.999986	1.37263	1.62080e-02
609.000009	1.36566	1.65990e-02
608.000016	1.35857	1.70060e-02
606.999985	1.35136	1.74310e-02
606.000006	1.34400	1.78760e-02
604.999986	1.33652	1.83400e-02
604.000014	1.32889	1.88250e-02
602.999997	1.32111	1.93330e-02
601.999988	1.31318	1.98630e-02
601.000004	1.30508	2.04180e-02
599.999988	1.29682	2.09980e-02
598.999993	1.28839	2.16060e-02
598.000001	1.27978	2.22420e-02
596.999991	1.27098	2.29090e-02
596.000017	1.26198	2.36070e-02
594.999989	1.25278	2.43400e-02
593.999994	1.24336	2.51090e-02
593.000014	1.23372	2.59170e-02
591.999996	1.22385	2.67650e-02
590.999992	1.21374	2.76570e-02
589.999984	1.20337	2.85950e-02
588.999989	1.19273	2.95830e-02
587.999990	1.18181	3.06250e-02
587.000004	1.17060	3.17230e-02
586.000014	1.15908	3.28830e-02
585.000003	1.14723	3.41090e-02
583.999989	1.13505	3.54050e-02
582.999989	1.12250	3.67790e-02
581.999986	1.10956	3.82350e-02
580.999999	1.09623	3.97820e-02
580.000010	1.08248	4.14270e-02
579.000006	1.06827	4.31790e-02
578.000002	1.05358	4.50480e-02
576.999984	1.03838	4.70460e-02
576.000004	1.02264	4.91850e-02
575.000012	1.00633	5.14800e-02
573.999993	0.98940	5.39480e-02
572.999999	0.97180	5.66090e-02
572.000016	0.95350	5.94860e-02
570.999995	0.93443	6.26050e-02
569.999989	0.91453	6.59980e-02
569.000014	0.89375	6.97040e-02
567.999994	0.87199	7.37670e-02
567.000010	0.84918	7.82420e-02
565.999985	0.82522	8.31970e-02
565.000001	0.80000	8.87160e-02
564.000014	0.77338	9.49030e-02
563.000011	0.74523	1.01894e-01
562.000010	0.71537	1.09864e-01
560.999998	0.68363	1.19043e-01
559.999996	0.64980	1.29742e-01
558.999989	0.61367	1.42385e-01
557.999999	0.57502	1.57562e-01
557.000011	0.53375	1.76094e-01
555.999985	0.48996	1.99108e-01
555.000001	0.44426	2.28039e-01
553.999985	0.39814	2.64375e-01
552.999989	0.35429	3.08857e-01
552.000001	0.31577	3.60451e-01
551.000010	0.28446	4.16436e-01
550.000006	0.26031	4.73914e-01
549.000007	0.24210	5.30976e-01
548.000005	0.22845	5.86747e-01
546.999989	0.21820	6.40979e-01
546.000009	0.21051	6.93722e-01
544.999996	0.20478	7.45146e-01
543.999998	0.20059	7.95457e-01
543.000008	0.19764	8.44860e-01
541.999985	0.19572	8.93550e-01
541.000010	0.19467	9.41702e-01
539.999986	0.19437	9.89480e-01
538.999991	0.19476	1.03703e+00
537.999988	0.19575	1.08449e+00
536.999998	0.19732	1.13198e+00
536.000012	0.19944	1.17963e+00
534.999994	0.20209	1.22755e+00
533.999993	0.20526	1.27585e+00
533.000002	0.20896	1.32464e+00
532.000014	0.21318	1.37404e+00
530.999992	0.21796	1.42414e+00
529.999987	0.22332	1.47508e+00
528.999991	0.22928	1.52696e+00
527.999998	0.23588	1.57990e+00
527.000002	0.24318	1.63403e+00
525.999996	0.25122	1.68949e+00
525.000001	0.26008	1.74643e+00
524.000013	0.26983	1.80500e+00
522.999997	0.28057	1.86537e+00
522.000003	0.29240	1.92772e+00
520.999999	0.30546	1.99225e+00
520.000006	0.31989	2.05919e+00
518.999993	0.33588	2.12879e+00
518.000008	0.35363	2.20130e+00
516.999994	0.37341	2.27703e+00
515.999999	0.39550	2.35633e+00
514.999993	0.42029	2.43956e+00
513.999998	0.44821	2.52714e+00
513.000010	0.47982	2.61955e+00
512.000000	0.51577	2.71731e+00
510.999990	0.55690	2.82101e+00
510.000004	0.60427	2.93131e+00
509.000011	0.65918	3.04890e+00
508.000010	0.72332	3.17454e+00
506.999997	0.79886	3.30901e+00
505.999996	0.88862	3.45302e+00
505.000005	0.99628	3.60711e+00
503.999996	1.12667	3.77138e+00
502.999993	1.28615	3.94507e+00
501.999993	1.48293	4.12574e+00
500.999996	1.72739	4.30789e+00
500.000000	2.03166	4.48068e+00
499.000004	2.40766	4.62463e+00
498.000007	2.86155	4.70828e+00
497.000009	3.38292	4.68842e+00
496.000008	3.93142	4.52154e+00
495.000005	4.43509	4.19053e+00
494.000000	4.81743	3.72888e+00
492.999992	5.03906	3.21056e+00
492.000006	5.11193	2.70920e+00
490.999995	5.07716	2.26850e+00
490.000006	4.97774	1.90170e+00
488.999994	4.84581	1.60437e+00
488.000007	4.70158	1.36551e+00
486.999998	4.55651	1.17346e+00
485.999993	4.41657	1.01811e+00
484.999993	4.28453	8.91343e-01
484.000001	4.16139	7.86914e-01
482.999994	4.04723	7.00039e-01
481.999999	3.94166	6.27080e-01
480.999995	3.84408	5.65255e-01
480.000008	3.75381	5.12423e-01
478.999994	3.67019	4.66923e-01
478.000002	3.59256	4.27455e-01
476.999991	3.52035	3.92990e-01
476.000008	3.45303	3.62710e-01
474.999991	3.39011	3.35956e-01
474.000009	3.33117	3.12194e-01
473.000001	3.27584	2.90987e-01
471.999993	3.22376	2.71975e-01
470.999989	3.17465	2.54861e-01
469.999994	3.12824	2.39396e-01
468.999992	3.08429	2.25371e-01
468.000008	3.04259	2.12608e-01
467.000005	3.00295	2.00960e-01
466.000010	2.96519	1.90296e-01
465.000007	2.92916	1.80507e-01
464.000003	2.89473	1.71499e-01
463.000003	2.86177	1.63190e-01
461.999992	2.83017	1.55507e-01
460.999999	2.79982	1.48389e-01
460.000009	2.77062	1.41781e-01
459.000008	2.74250	1.35636e-01
458.000003	2.71538	1.29910e-01
457.000002	2.68918	1.24567e-01
455.999991	2.66383	1.19573e-01
455.000000	2.63928	1.14900e-01
453.999994	2.61546	1.10519e-01
453.000004	2.59233	1.06409e-01
451.999996	2.56984	1.02547e-01
451.000000	2.54794	9.89150e-02
450.000004	2.52659	9.54960e-02
448.999998	2.50575	9.22740e-02
447.999991	2.48538	8.92360e-02
446.999993	2.46545	8.63700e-02
445.999993	2.44592	8.36630e-02
445.000002	2.42676	8.11050e-02
443.999991	2.40794	7.86880e-02
443.000008	2.38944	7.64030e-02
442.000008	2.37122	7.42410e-02
440.999999	2.35326	7.21970e-02
439.999995	2.33554	7.02640e-02
439.000005	2.31802	6.84370e-02
438.000004	2.30069	6.67090e-02
437.000004	2.28352	6.50770e-02
435.999997	2.26648	6.35370e-02
434.999995	2.24957	6.20840e-02
433.999993	2.23275	6.07160e-02
433.000004	2.21600	5.94290e-02
432.000003	2.19930	5.82210e-02
431.000003	2.18262	5.70910e-02
429.999999	2.16595	5.60350e-02
429.000006	2.14927	5.50540e-02
428.000000	2.13254	5.41450e-02
426.999995	2.11575	5.33080e-02
426.000007	2.09888	5.25430e-02
424.999996	2.08188	5.18500e-02
423.999994	2.06475	5.12280e-02
422.999999	2.04746	5.06800e-02
422.000008	2.02997	5.02050e-02
421.000002	2.01225	4.98070e-02
419.999997	1.99429	4.94860e-02
419.000008	1.97603	4.92460e-02
418.000000	1.95745	4.90900e-02
417.000006	1.93851	4.90230e-02
415.999992	1.91917	4.90480e-02
414.999992	1.89938	4.91710e-02
414.000006	1.87910	4.94000e-02
413.000001	1.85828	4.97410e-02
411.999994	1.83685	5.02050e-02
411.000004	1.81477	5.08010e-02
409.999998	1.79195	5.15420e-02
408.999996	1.76833	5.24440e-02
407.999999	1.74383	5.35220e-02
406.999993	1.71834	5.47970e-02
405.999998	1.69176	5.62940e-02
405.000000	1.66398	5.80420e-02
404.000004	1.63486	6.00740e-02
402.999996	1.60425	6.24330e-02
401.999998	1.57197	6.51690e-02
400.999998	1.53781	6.83460e-02
400.000000	1.50155	7.20420e-02
398.999994	1.46290	7.63540e-02
398.000002	1.42152	8.14100e-02
396.999998	1.37702	8.73720e-02
396.000004	1.32891	9.44600e-02
394.999995	1.27660	1.02969e-01
393.999995	1.21935	1.13314e-01
392.999994	1.15620	1.26096e-01
392.000001	1.08595	1.42223e-01
390.999993	1.00702	1.63137e-01
389.999995	0.91743	1.91275e-01
388.999998	0.81486	2.31029e-01
387.999998	0.69793	2.90667e-01
387.000004	0.57181	3.84095e-01
385.999996	0.45872	5.20870e-01
385.000000	0.38237	6.83245e-01
383.999995	0.33905	8.46997e-01
382.999994	0.31597	1.00468e+00
382.000007	0.30510	1.15706e+00
381.000002	0.30240	1.30648e+00
380.000007	0.30592	1.45531e+00
379.000004	0.31479	1.60566e+00
378.000007	0.32881	1.75956e+00
376.999999	0.34822	1.91900e+00
375.999995	0.37371	2.08607e+00
374.999995	0.40643	2.26310e+00
373.999999	0.44815	2.45281e+00
373.000007	0.50148	2.65838e+00
372.000006	0.57028	2.88373e+00
370.999999	0.66043	3.13362e+00
370.000000	0.78105	3.41383e+00
369.000000	0.94672	3.73094e+00
368.000001	1.18159	4.09099e+00
367.000005	1.52645	4.49461e+00
366.000005	2.04895	4.92094e+00
365.000004	2.84468	5.28244e+00
364.000006	3.96033	5.34271e+00
363.000005	5.13601	4.78126e+00
362.000005	5.81885	3.70876e+00
361.000000	5.89454	2.67059e+00
359.999997	5.66894	1.92336e+00
359.000003	5.36866	1.42893e+00
357.999999	5.07988	1.10033e+00
357.000006	4.82520	8.74985e-01
355.999995	4.60612	7.14842e-01
355.000001	4.41837	5.97195e-01
353.999995	4.25681	5.08221e-01
352.999999	4.11680	4.39232e-01
351.999999	3.99452	3.84581e-01
351.000006	3.88690	3.40484e-01
349.999995	3.79148	3.04332e-01
349.000002	3.70629	2.74279e-01
348.000002	3.62978	2.48990e-01
346.999998	3.56065	2.27480e-01
346.000001	3.49787	2.09008e-01
345.000003	3.44059	1.93008e-01
344.000005	3.38809	1.79044e-01
342.999999	3.33979	1.66770e-01
342.000001	3.29517	1.55914e-01
341.000002	3.25383	1.46257e-01
339.999997	3.21540	1.37620e-01
339.000001	3.17958	1.29859e-01
337.999998	3.14609	1.22854e-01
336.999994	3.11470	1.16504e-01
335.999997	3.08522	1.10726e-01
335.000003	3.05747	1.05451e-01
333.999997	3.03129	1.00617e-01
333.000000	3.00654	9.61760e-02
331.999999	2.98312	9.20810e-02
331.000004	2.96090	8.82980e-02
330.000003	2.93979	8.47920e-02
328.999998	2.91971	8.15350e-02
327.999999	2.90057	7.85030e-02
326.999997	2.88232	7.56740e-02
325.999996	2.86488	7.30300e-02
324.999998	2.84821	7.05530e-02
323.999995	2.83224	6.82280e-02
323.000003	2.81693	6.60430e-02
321.999996	2.80224	6.39850e-02
321.000000	2.78813	6.20440e-02
320.000000	2.77456	6.02110e-02
319.000004	2.76151	5.84770e-02
317.999999	2.74893	5.68340e-02
317.000003	2.73681	5.52760e-02
315.999996	2.72512	5.37970e-02
314.999997	2.71382	5.23900e-02
313.999998	2.70291	5.10500e-02
312.999998	2.69236	4.97740e-02
312.000000	2.68215	4.85560e-02
310.999998	2.67227	4.73930e-02
309.999995	2.66269	4.62810e-02
308.999996	2.65341	4.52170e-02
308.000004	2.64441	4.41980e-02
306.999999	2.63567	4.32210e-02
305.999996	2.62718	4.22840e-02
305.000002	2.61894	4.13840e-02
303.999999	2.61093	4.05190e-02
303.000003	2.60314	3.96880e-02
301.999998	2.59556	3.88870e-02
301.000003	2.58818	3.81160e-02
300.000003	2.58099	3.73730e-02
299.000000	2.57399	3.66560e-02
298.000000	2.56716	3.59650e-02
296.999997	2.56051	3.52970e-02
295.999998	2.55402	3.46510e-02
295.000001	2.54768	3.40270e-02
294.000004	2.54150	3.34230e-02
292.999999	2.53546	3.28390e-02
292.000003	2.52957	3.22730e-02
291.000001	2.52381	3.17240e-02
289.999997	2.51817	3.11930e-02
289.000001	2.51267	3.06770e-02
288.000002	2.50728	3.01760e-02
286.999996	2.50201	2.96900e-02
286.000000	2.49686	2.92180e-02
285.000002	2.49181	2.87590e-02
283.999997	2.48687	2.83130e-02
283.000000	2.48203	2.78800e-02
281.999999	2.47729	2.74570e-02
280.999997	2.47264	2.70470e-02
279.999998	2.46808	2.66460e-02
278.999999	2.46362	2.62570e-02
278.000000	2.45924	2.58770e-02
277.000000	2.45494	2.55060e-02
276.000000	2.45073	2.51450e-02
275.000003	2.44660	2.47930e-02
274.000003	2.44254	2.44490e-02
272.999997	2.43856	2.41130e-02
271.999999	2.43465	2.37860e-02
271.000000	2.43080	2.34650e-02
270.000000	2.42703	2.31530e-02
269.000001	2.42333	2.28470e-02
267.999999	2.41968	2.25480e-02
266.999997	2.41611	2.22550e-02
266.000000	2.41259	2.19690e-02
265.000000	2.40913	2.16890e-02
263.999999	2.40573	2.14150e-02
262.999998	2.40239	2.11470e-02
262.000000	2.39910	2.08840e-02
261.000002	2.39586	2.06270e-02
260.000003	2.39268	2.03750e-02
258.999997	2.38955	2.01280e-02
257.999999	2.38647	1.98850e-02
256.999999	2.38343	1.96480e-02
256.000000	2.38045	1.94150e-02
255.000002	2.37751	1.91860e-02
253.999998	2.37461	1.89620e-02
252.999998	2.37176	1.87420e-02
251.999998	2.36895	1.85260e-02
251.000003	2.36619	1.83140e-02
250.000000	2.36346	1.81060e-02
248.999997	2.36078	1.79020e-02
247.999998	2.35813	1.77010e-02
247.000000	2.35553	1.75030e-02
245.999997	2.35296	1.73090e-02
244.999997	2.35042	1.71190e-02
243.999997	2.34793	1.69310e-02
243.000002	2.34547	1.67470e-02
242.000000	2.34304	1.65650e-02
241.000000	2.34065	1.63870e-02
239.999998	2.33829	1.62120e-02
239.000001	2.33596	1.60390e-02
237.999998	2.33366	1.58690e-02
236.999999	2.33140	1.57020e-02
236.000002	2.32917	1.55370e-02
235.000003	2.32696	1.53750e-02
233.999999	2.32478	1.52160e-02
233.000000	2.32264	1.50590e-02
232.000001	2.32052	1.49040e-02
231.000002	2.31843	1.47510e-02
229.999999	2.31637	1.46010e-02
229.000001	2.31433	1.44530e-02
228.000001	2.31232	1.43070e-02
227.000002	2.31033	1.41630e-02
225.999998	2.30838	1.40210e-02
225.000002	2.30644	1.38810e-02
224.000001	2.30453	1.37430e-02
223.000002	2.30264	1.36070e-02
222.000000	2.30078	1.34730e-02
220.999999	2.29894	1.33410e-02
220.000002	2.29712	1.32100e-02
219.000002	2.29533	1.30810e-02
217.999998	2.29355	1.29540e-02
217.000001	2.29180	1.28280e-02
216.000001	2.29007	1.27040e-02
215.000000	2.28836	1.25820e-02
214.000000	2.28667	1.24610e-02
212.999999	2.28500	1.23420e-02
212.000001	2.28335	1.22240e-02
211.000000	2.28172	1.21080e-02
209.999998	2.28011	1.19930e-02
209.000000	2.27852	1.18790e-02
208.000000	2.27694	1.17670e-02
206.999999	2.27539	1.16560e-02
206.000001	2.27385	1.15470e-02
204.999999	2.27233	1.14380e-02
203.999999	2.27083	1.13310e-02
202.999999	2.26934	1.12250e-02
202.000002	2.26788	1.11210e-02
200.999999	2.26642	1.10170e-02
200.000000	2.26499	1.09150e-02
